{
  "resourceType": "Bundle",
  "id": "microExample-2-members",
  "type": "collection",
  "entry": [
    {
      "fullUrl": "https://example.com/base/Patient/example",
      "resource": {
        "resourceType": "Patient",
        "id": "example",
        "identifier": [
          {
            "system": "http://hospital.example.org/patients",
            "value": "67890"
          }
        ],
        "name": [
          {
            "family": "Johnson",
            "given": ["Mary"]
          }
        ],
        "gender": "female",
        "birthDate": "1982-03-22"
      }
    },
    {
      "fullUrl": "https://example.com/base/Organization/lab-example",
      "resource": {
        "resourceType": "Organization",
        "id": "lab-example",
        "name": "Example Microbiology Laboratory",
        "type": [
          {
            "coding": [
              {
                "system": "http://terminology.hl7.org/CodeSystem/organization-type",
                "code": "prov",
                "display": "Healthcare Provider"
              }
            ]
          }
        ]
      }
    },
    {
      "fullUrl": "https://example.com/base/Specimen/wound-1",
      "resource": {
        "resourceType": "Specimen",
        "id": "wound-1",
        "type": {
          "coding": [
            {
              "system": "http://snomed.info/sct",
              "code": "258531008",
              "display": "Wound swab"
            }
          ]
        },
        "subject": {
          "reference": "Patient/example"
        },
        "receivedTime": "2026-01-23T10:00:00Z",
        "collection": {
          "collectedDateTime": "2026-01-23T09:30:00Z",
          "bodySite": {
            "coding": [
              {
                "system": "http://snomed.info/sct",
                "code": "368209003",
                "display": "Right upper arm"
              }
            ]
          }
        }
      }
    },
    {
      "fullUrl": "https://example.com/base/DiagnosticReport/micro-report-1",
      "resource": {
        "resourceType": "DiagnosticReport",
        "id": "micro-report-1",
        "status": "final",
        "category": [
          {
            "coding": [
              {
                "system": "http://terminology.hl7.org/CodeSystem/v2-0074",
                "code": "MB",
                "display": "Microbiology"
              }
            ]
          }
        ],
        "code": {
          "coding": [
            {
              "system": "http://loinc.org",
              "code": "6463-4",
              "display": "Bacteria identified in Specimen by Culture"
            }
          ]
        },
        "subject": {
          "reference": "Patient/example"
        },
        "effectiveDateTime": "2026-01-23T11:00:00Z",
        "issued": "2026-01-23T16:30:00Z",
        "performer": [
          {
            "reference": "Organization/lab-example"
          }
        ],
        "specimen": [
          {
            "reference": "Specimen/wound-1"
          }
        ],
        "result": [
          {
            "reference": "Observation/gram-stain"
          },
          {
            "reference": "Observation/organism-1-identification"
          },
          {
            "reference": "Observation/organism-2-identification"
          }
        ]
      }
    },
    {
      "fullUrl": "https://example.com/base/Observation/gram-stain",
      "resource": {
        "resourceType": "Observation",
        "id": "gram-stain",
        "status": "final",
        "category": [
          {
            "coding": [
              {
                "system": "http://terminology.hl7.org/CodeSystem/observation-category",
                "code": "laboratory"
              }
            ]
          }
        ],
        "code": {
          "coding": [
            {
              "system": "http://loinc.org",
              "code": "664-3",
              "display": "Microscopic observation [Identifier] in Specimen by Gram stain"
            }
          ],
          "text": "Gram Stain"
        },
        "subject": {
          "reference": "Patient/example"
        },
        "effectiveDateTime": "2026-01-23T11:00:00Z",
        "valueString": "Moderate gram-positive cocci in clusters and moderate gram-positive cocci in chains"
      }
    },
    {
      "fullUrl": "https://example.com/base/Observation/organism-1-identification",
      "resource": {
        "resourceType": "Observation",
        "id": "organism-1-identification",
        "status": "final",
        "category": [
          {
            "coding": [
              {
                "system": "http://terminology.hl7.org/CodeSystem/observation-category",
                "code": "laboratory"
              }
            ]
          }
        ],
        "code": {
          "coding": [
            {
              "system": "http://loinc.org",
              "code": "6463-4",
              "display": "Bacteria identified in Specimen by Culture"
            }
          ],
          "text": "Organism #1 Identification"
        },
        "subject": {
          "reference": "Patient/example"
        },
        "effectiveDateTime": "2026-01-23T14:00:00Z",
        "valueCodeableConcept": {
          "coding": [
            {
              "system": "http://snomed.info/sct",
              "code": "3092008",
              "display": "Staphylococcus aureus"
            }
          ]
        },
        "note": [
          {
            "text": "Organism #1 - Heavy growth"
          }
        ],
        "hasMember": [
          {
            "reference": "Observation/organism-1-susceptibility-oxacillin"
          },
          {
            "reference": "Observation/organism-1-susceptibility-erythromycin"
          },
          {
            "reference": "Observation/organism-1-susceptibility-clindamycin"
          },
          {
            "reference": "Observation/organism-1-susceptibility-trimethoprim-sulfamethoxazole"
          }
        ]
      }
    },
    {
      "fullUrl": "https://example.com/base/Observation/organism-1-susceptibility-oxacillin",
      "resource": {
        "resourceType": "Observation",
        "id": "organism-1-susceptibility-oxacillin",
        "status": "final",
        "category": [
          {
            "coding": [
              {
                "system": "http://terminology.hl7.org/CodeSystem/observation-category",
                "code": "laboratory"
              }
            ]
          }
        ],
        "code": {
          "coding": [
            {
              "system": "http://loinc.org",
              "code": "18961-4",
              "display": "Oxacillin [Susceptibility]"
            }
          ]
        },
        "subject": {
          "reference": "Patient/example"
        },
        "effectiveDateTime": "2026-01-23T15:00:00Z",
        "valueQuantity": {
          "value": 0.5,
          "unit": "ug/mL",
          "system": "http://unitsofmeasure.org",
          "code": "ug/mL"
        },
        "interpretation": [
          {
            "coding": [
              {
                "system": "http://terminology.hl7.org/CodeSystem/v3-ObservationInterpretation",
                "code": "S",
                "display": "Susceptible"
              }
            ]
          }
        ]
      }
    },
    {
      "fullUrl": "https://example.com/base/Observation/organism-1-susceptibility-erythromycin",
      "resource": {
        "resourceType": "Observation",
        "id": "organism-1-susceptibility-erythromycin",
        "status": "final",
        "category": [
          {
            "coding": [
              {
                "system": "http://terminology.hl7.org/CodeSystem/observation-category",
                "code": "laboratory"
              }
            ]
          }
        ],
        "code": {
          "coding": [
            {
              "system": "http://loinc.org",
              "code": "18919-1",
              "display": "Erythromycin [Susceptibility]"
            }
          ]
        },
        "subject": {
          "reference": "Patient/example"
        },
        "effectiveDateTime": "2026-01-23T15:00:00Z",
        "valueQuantity": {
          "value": 0.5,
          "unit": "ug/mL",
          "system": "http://unitsofmeasure.org",
          "code": "ug/mL"
        },
        "interpretation": [
          {
            "coding": [
              {
                "system": "http://terminology.hl7.org/CodeSystem/v3-ObservationInterpretation",
                "code": "S",
                "display": "Susceptible"
              }
            ]
          }
        ]
      }
    },
    {
      "fullUrl": "https://example.com/base/Observation/organism-1-susceptibility-clindamycin",
      "resource": {
        "resourceType": "Observation",
        "id": "organism-1-susceptibility-clindamycin",
        "status": "final",
        "category": [
          {
            "coding": [
              {
                "system": "http://terminology.hl7.org/CodeSystem/observation-category",
                "code": "laboratory"
              }
            ]
          }
        ],
        "code": {
          "coding": [
            {
              "system": "http://loinc.org",
              "code": "18907-6",
              "display": "Clindamycin [Susceptibility]"
            }
          ]
        },
        "subject": {
          "reference": "Patient/example"
        },
        "effectiveDateTime": "2026-01-23T15:00:00Z",
        "valueQuantity": {
          "value": 0.25,
          "unit": "ug/mL",
          "system": "http://unitsofmeasure.org",
          "code": "ug/mL"
        },
        "interpretation": [
          {
            "coding": [
              {
                "system": "http://terminology.hl7.org/CodeSystem/v3-ObservationInterpretation",
                "code": "S",
                "display": "Susceptible"
              }
            ]
          }
        ]
      }
    },
    {
      "fullUrl": "https://example.com/base/Observation/organism-1-susceptibility-trimethoprim-sulfamethoxazole",
      "resource": {
        "resourceType": "Observation",
        "id": "organism-1-susceptibility-trimethoprim-sulfamethoxazole",
        "status": "final",
        "category": [
          {
            "coding": [
              {
                "system": "http://terminology.hl7.org/CodeSystem/observation-category",
                "code": "laboratory"
              }
            ]
          }
        ],
        "code": {
          "coding": [
            {
              "system": "http://loinc.org",
              "code": "18998-5",
              "display": "Trimethoprim+Sulfamethoxazole [Susceptibility]"
            }
          ]
        },
        "subject": {
          "reference": "Patient/example"
        },
        "effectiveDateTime": "2026-01-23T15:00:00Z",
        "valueQuantity": {
          "value": 0.5,
          "unit": "ug/mL",
          "system": "http://unitsofmeasure.org",
          "code": "ug/mL"
        },
        "interpretation": [
          {
            "coding": [
              {
                "system": "http://terminology.hl7.org/CodeSystem/v3-ObservationInterpretation",
                "code": "S",
                "display": "Susceptible"
              }
            ]
          }
        ]
      }
    },
    {
      "fullUrl": "https://example.com/base/Observation/organism-2-identification",
      "resource": {
        "resourceType": "Observation",
        "id": "organism-2-identification",
        "status": "final",
        "category": [
          {
            "coding": [
              {
                "system": "http://terminology.hl7.org/CodeSystem/observation-category",
                "code": "laboratory"
              }
            ]
          }
        ],
        "code": {
          "coding": [
            {
              "system": "http://loinc.org",
              "code": "6463-4",
              "display": "Bacteria identified in Specimen by Culture"
            }
          ],
          "text": "Organism #2 Identification"
        },
        "subject": {
          "reference": "Patient/example"
        },
        "effectiveDateTime": "2026-01-23T14:00:00Z",
        "valueCodeableConcept": {
          "coding": [
            {
              "system": "http://snomed.info/sct",
              "code": "80166006",
              "display": "Streptococcus pyogenes"
            }
          ]
        },
        "note": [
          {
            "text": "Organism #2 - Moderate growth"
          }
        ],
        "hasMember": [
          {
            "reference": "Observation/organism-2-susceptibility-vancomycin"
          },
          {
            "reference": "Observation/organism-2-susceptibility-ampicillin"
          },
          {
            "reference": "Observation/organism-2-susceptibility-linezolid"
          },
          {
            "reference": "Observation/organism-2-susceptibility-daptomycin"
          }
        ]
      }
    },
    {
      "fullUrl": "https://example.com/base/Observation/organism-2-susceptibility-vancomycin",
      "resource": {
        "resourceType": "Observation",
        "id": "organism-2-susceptibility-vancomycin",
        "status": "final",
        "category": [
          {
            "coding": [
              {
                "system": "http://terminology.hl7.org/CodeSystem/observation-category",
                "code": "laboratory"
              }
            ]
          }
        ],
        "code": {
          "coding": [
            {
              "system": "http://loinc.org",
              "code": "19000-9",
              "display": "Vancomycin [Susceptibility]"
            }
          ]
        },
        "subject": {
          "reference": "Patient/example"
        },
        "effectiveDateTime": "2026-01-23T15:00:00Z",
        "valueQuantity": {
          "value": 0.5,
          "unit": "ug/mL",
          "system": "http://unitsofmeasure.org",
          "code": "ug/mL"
        },
        "interpretation": [
          {
            "coding": [
              {
                "system": "http://terminology.hl7.org/CodeSystem/v3-ObservationInterpretation",
                "code": "S",
                "display": "Susceptible"
              }
            ]
          }
        ]
      }
    },
    {
      "fullUrl": "https://example.com/base/Observation/organism-2-susceptibility-ampicillin",
      "resource": {
        "resourceType": "Observation",
        "id": "organism-2-susceptibility-ampicillin",
        "status": "final",
        "category": [
          {
            "coding": [
              {
                "system": "http://terminology.hl7.org/CodeSystem/observation-category",
                "code": "laboratory"
              }
            ]
          }
        ],
        "code": {
          "coding": [
            {
              "system": "http://loinc.org",
              "code": "18864-9",
              "display": "Ampicillin [Susceptibility]"
            }
          ]
        },
        "subject": {
          "reference": "Patient/example"
        },
        "effectiveDateTime": "2026-01-23T15:00:00Z",
        "valueQuantity": {
          "value": 0.25,
          "unit": "ug/mL",
          "system": "http://unitsofmeasure.org",
          "code": "ug/mL"
        },
        "interpretation": [
          {
            "coding": [
              {
                "system": "http://terminology.hl7.org/CodeSystem/v3-ObservationInterpretation",
                "code": "S",
                "display": "Susceptible"
              }
            ]
          }
        ]
      }
    },
    {
      "fullUrl": "https://example.com/base/Observation/organism-2-susceptibility-linezolid",
      "resource": {
        "resourceType": "Observation",
        "id": "organism-2-susceptibility-linezolid",
        "status": "final",
        "category": [
          {
            "coding": [
              {
                "system": "http://terminology.hl7.org/CodeSystem/observation-category",
                "code": "laboratory"
              }
            ]
          }
        ],
        "code": {
          "coding": [
            {
              "system": "http://loinc.org",
              "code": "29258-1",
              "display": "Linezolid [Susceptibility]"
            }
          ]
        },
        "subject": {
          "reference": "Patient/example"
        },
        "effectiveDateTime": "2026-01-23T15:00:00Z",
        "valueQuantity": {
          "value": 1,
          "unit": "ug/mL",
          "system": "http://unitsofmeasure.org",
          "code": "ug/mL"
        },
        "interpretation": [
          {
            "coding": [
              {
                "system": "http://terminology.hl7.org/CodeSystem/v3-ObservationInterpretation",
                "code": "S",
                "display": "Susceptible"
              }
            ]
          }
        ]
      }
    },
    {
      "fullUrl": "https://example.com/base/Observation/organism-2-susceptibility-daptomycin",
      "resource": {
        "resourceType": "Observation",
        "id": "organism-2-susceptibility-daptomycin",
        "status": "final",
        "category": [
          {
            "coding": [
              {
                "system": "http://terminology.hl7.org/CodeSystem/observation-category",
                "code": "laboratory"
              }
            ]
          }
        ],
        "code": {
          "coding": [
            {
              "system": "http://loinc.org",
              "code": "35789-7",
              "display": "Daptomycin [Susceptibility]"
            }
          ]
        },
        "subject": {
          "reference": "Patient/example"
        },
        "effectiveDateTime": "2026-01-23T15:00:00Z",
        "valueQuantity": {
          "value": 0.5,
          "unit": "ug/mL",
          "system": "http://unitsofmeasure.org",
          "code": "ug/mL"
        },
        "interpretation": [
          {
            "coding": [
              {
                "system": "http://terminology.hl7.org/CodeSystem/v3-ObservationInterpretation",
                "code": "S",
                "display": "Susceptible"
              }
            ]
          }
        ]
      }
    }
  ]
}
